Folder: echem/NMC532 vs graphite

Note: NMC532 vs graphite/MT632t1 cyc3.txt
mAh	volts	mA
0.0	3.02327001	0.12031739999999999
1.18e-05	3.035935	0.12161440000000001
2.53e-05	3.04814221	0.1213092
4.15e-05	3.06019684	0.1212329
6.0700000000000005e-05	3.0717937	0.1213855
8.369999999999999e-05	3.08308537	0.1213855
0.0001123	3.09407187	0.1214618
0.0001487	3.104448	0.1213092
0.00019760000000000003	3.11497673	0.1213855
0.0002701	3.12535286	0.1214618
0.000382	3.13557641	0.1214618
0.0005728	3.14579995	0.1213092
0.0009102	3.15587091	0.1215381
0.001483	3.16594186	0.1213855
0.0024053	3.17601282	0.1213092
0.0037739	3.18608377	0.1211566
0.005665	3.19615473	0.1212329
0.0081663	3.20622568	0.1214618
0.0112915	3.21629664	0.1214618
0.015026199999999998	3.22652018	0.1213855
0.019488699999999998	3.23659113	0.1215381
0.024516899999999998	3.24666209	0.1213092
0.0301262	3.25688563	0.1213855
0.036411700000000005	3.26695659	0.1213855
0.043244700000000004	3.27702754	0.1213092
0.050447799999999994	3.2870985	0.1213092
0.0580905	3.29716945	0.1213855
0.0661664	3.30724041	0.1210803
0.0746724	3.31731136	0.1213855
0.08352389999999998	3.32738231	0.1213855
0.09286219999999999	3.33745327	0.1215381
0.1024584	3.34752422	0.1214618
0.1126182	3.35759518	0.1213855
0.1232483	3.36766613	0.1213855
0.1342471	3.37773709	0.1213092
0.14564	3.38780804	0.1213092
0.1576795	3.397879	0.1213092
0.17032740000000002	3.40794995	0.1213855
0.1832416	3.4180209	0.12161440000000001
0.1969261	3.42809186	0.1213092
0.2115184	3.43816281	0.1215381
0.2269211	3.44823377	0.1213092
0.2444115	3.45830472	0.1213855
0.2671477	3.46837568	0.1214618
0.2974866	3.47539483	0.1213855
0.3278254	3.47951476	0.1212329
0.3581643	3.48302434	0.1214618
0.3885031	3.48607614	0.1212329
0.41884190000000004	3.48958572	0.1214618
0.44918080000000005	3.49279011	0.1213092
0.4795196	3.49645228	0.1212329
0.5098584	3.5007248	0.1213855
0.5401973000000001	3.50530251	0.1213092
0.5705361	3.5101854	0.1213855
0.6008749	3.51552605	0.1213092
0.6312137999999999	3.52117189	0.1213855
0.6615525999999999	3.52742809	0.1211566
0.6918915	3.53383688	0.1214618
0.7222303	3.54024567	0.12161440000000001
0.7525691999999999	3.54650187	0.12161440000000001
0.782908	3.55275807	0.1213855
0.8132467999999999	3.55916686	0.1213855
0.8435857	3.56557565	0.1213092
0.8739246	3.57152667	0.1213855
0.9042634	3.5771725	0.1212329
0.9346023	3.58251316	0.1215381
0.9649411999999999	3.58831159	0.1210803
0.99528	3.59426261	0.1211566
1.0256188000000002	3.60021363	0.1214618
1.0559577	3.60479133	0.1213092
1.0862966	3.60891127	0.1212329
1.1166353999999998	3.61211566	0.1214618
1.1469741999999998	3.61532006	0.1214618
1.1773131	3.61852445	0.1212329
1.207652	3.62127108	0.1215381
1.2379908000000002	3.6240177	0.1213092
1.2683297	3.62661173	0.1212329
1.2986685	3.62905318	0.1213855
1.3290073999999998	3.63118944	0.1213855
1.3593462	3.63347829	0.1214618
1.3896851000000001	3.63561456	0.1214618
1.4200239000000001	3.63775082	0.1213092
1.4503628	3.6395819	0.1214618
1.4807016	3.64141299	0.1214618
1.5110405	3.64354925	0.1215381
1.5413793	3.64553292	0.1213855
1.5717182	3.64766918	0.1213855
1

Note: NMC532 vs graphite/MT632t1 cyc54.txt
mAh	volts	mA
0.0	3.01426719	0.1199359
0.001606	3.02433814	0.1212329
0.004409	3.03440909	0.1214618
0.007636699999999999	3.04448005	0.1213855
0.0111594	3.054551	0.1213855
0.014968900000000002	3.06462196	0.1213092
0.0189244	3.07469291	0.1213855
0.0230633	3.08476387	0.1214618
0.0273428	3.09483482	0.1213092
0.0318151	3.10490578	0.1211566
0.0365028	3.11497673	0.1212329
0.0413779	3.12504768	0.1215381
0.046444799999999994	3.13511864	0.1213092
0.0515855	3.14518959	0.1212329
0.056993999999999996	3.15526055	0.12161440000000001
0.0625126	3.1653315	0.1213855
0.0681506	3.17540246	0.1213092
0.0741341	3.18547341	0.1213092
0.0803144	3.19554437	0.1213855
0.08660910000000001	3.20561532	0.1213855
0.09317500000000001	3.21568627	0.1213855
0.0999093	3.22575723	0.1215381
0.10689969999999999	3.23582818	0.1212329
0.11405049999999999	3.24605173	0.1213855
0.1215715	3.25612268	0.1211566
0.1292098	3.26619364	0.1214618
0.1371869	3.27626459	0.1213092
0.145317	3.28633555	0.1216907
0.1537132	3.2964065	0.1213855
0.1624956	3.30647745	0.1215381
0.1714911	3.31654841	0.1212329
0.1808732	3.32661936	0.1213092
0.19038639999999998	3.33669032	0.1212329
0.2002449	3.34676127	0.1213855
0.21049169999999998	3.35683223	0.1214618
0.22116990000000003	3.36690318	0.1213092
0.2322723	3.37697414	0.1215381
0.2438253	3.38704509	0.1212329
0.25571380000000005	3.39711604	0.1212329
0.2680758	3.407187	0.1212329
0.2809102	3.41725795	0.1212329
0.2943186	3.42732891	0.1212329
0.30833790000000005	3.43739986	0.1214618
0.32337140000000003	3.44747082	0.1213855
0.33952519999999997	3.45754177	0.1212329
0.357858	3.46761273	0.1211566
0.38351820000000003	3.47768368	0.1213092
0.4138571	3.48348211	0.1213855
0.4441959	3.48683909	0.1213092
0.4745347	3.49034867	0.1214618
0.5048735999999999	3.49309529	0.1213855
0.5352124	3.49645228	0.1213092
0.5655513	3.49965667	0.1213855
0.5958901	3.50316625	0.1213855
0.626229	3.506981	0.1213092
0.6565678999999999	3.51140612	0.1215381
0.6869067	3.51613642	0.1214618
0.7172455	3.52117189	0.1213092
0.7475844	3.52712291	0.1213855
0.7779232000000001	3.53337911	0.1212329
0.8082621000000001	3.5397879	0.1212329
0.8386009	3.5460441	0.1214618
0.8689397999999999	3.55245289	0.1213092
0.8992785999999999	3.5585565	0.1212329
0.9296175000000001	3.56511788	0.1213092
0.9599563000000001	3.57167926	0.1213855
0.9902952	3.57732509	0.1212329
1.0206339999999998	3.58312352	0.1213092
1.0509727999999998	3.588159	0.1213092
1.0813116999999999	3.59395743	0.1213855
1.1116506	3.59990845	0.1214618
1.1419894000000002	3.60585946	0.1213092
1.1723283	3.61043717	0.1213855
1.2026671	3.61425193	0.1214618
1.2330059	3.61745632	0.1213092
1.2633447999999998	3.62035554	0.1213855
1.2936836	3.62310216	0.1213092
1.3240224999999999	3.62630655	0.1211566
1.3543614000000002	3.62890059	0.1213855
1.3847002	3.63134203	0.1212329
1.4150391000000002	3.63408865	0.1213092
1.4453779000000002	3.6365301	0.1212329
1.4757168	3.63836118	0.1212329
1.5060556	3.64080262	0.1213855
1.5363945	3.64293889	0.1214618
1.5667332999999999	3.64507515	0.1214618
1.59707209

File: hc_gr.txt
volts	mAhg
1.12276	2.837E-05
1.0724	0.404003
1.02205	0.986972
0.971695	1.6671
0.92134	2.43423
0.870985	3.25902
0.8206302	4.1177
0.770123	4.99501
0.719768	5.94808
0.669413	7.06992
0.619059	8.36351
0.572976	9.72285
0.53254	11.0822
0.496986	12.4415
0.465095	13.8009
0.436408	15.1602
0.4103151	16.5196
0.386053	17.8789
0.364233	19.2383
0.343938	20.5976
0.324712	21.957
0.307164	23.3163
0.29099	24.6756
0.275578	26.035
0.261387	27.3943
0.2481117	28.7537
0.235752	30.113
0.224918	31.4724
0.216068	32.8317
0.210117	34.1911
0.208286	35.5504
0.20737	36.9097
0.207218	38.2691
0.20676	39.6284
0.206607	40.9878
0.206149	42.3471
0.205539	43.7065
0.204776	45.0658
0.204166	46.4252
0.20325	47.7845
0.202029	49.1438
0.200656	50.5032
0.199283	51.8625
0.197299	53.2219
0.195315	54.5812
0.192874	55.9406
0.19028	57.2999
0.187381	58.6593
0.184329	60.0186
0.181125	61.3779
0.1779202	62.7373
0.1747158	64.0966
0.171664	65.456
0.168612	66.8153
0.165713	68.1747
0.162814	69.534
0.159609	70.8934
0.1561	72.2527
0.152743	73.612
0.150149	74.9714
0.148318	76.3307
0.146334	77.6901
0.143893	79.0494
0.141451	80.4088
0.138399	81.7681
0.135195	83.1275
0.131991	84.4868
0.128939	85.8461
0.127565	87.2055
0.126802	88.5648
0.126192	89.9242
0.125429	91.2835
0.1248188	92.6429
0.124361	94.0022
0.1232929	95.3616
0.12253	96.7209
0.121767	98.0802
0.121309	99.4396
0.120699	100.799
0.120241	102.158
0.119631	103.518
0.119326	104.877
0.118868	106.236
0.118868	107.596
0.1185626	108.955
0.1185626	110.314
0.118105	111.674
0.118105	113.033
0.117952	114.392
0.117952	115.752
0.1178	117.111
0.117647	118.47
0.117647	119.83
0.117494	121.189
0.117342	122.548
0.117342	123.908
0.117189	125.267
0.1170367	126.626
0.1170367	127.986
0.1170367	129.345
0.116732	130.705
0.116884	132.064
0.116732	133.423
0.116579	134.783
0.116426	136.142
0.116274	137.501
0.116426	138.861
0.116274	140.22
0.116121	141.579
0.115816	142.939
0.115816	144.298
0.115663	145.657
0.115663	147.017
0.1155108	148.376
0.115358	149.735
0.115358	151.095
0.115206	152.454
0.1149	153.813
0.1149	155.173
0.114748	156.532
0.114595	157.891
0.114595	159.251
0.11429	160.61
0.114137	161.969
0.1138323	163.329
0.113527	164.688
0.113222	166.047
0.112917	167.407
0.112459	168.766
0.112154	170.126
0.111696	171.485
0.111238	172.844
0.110475	174.204
0.109865	175.563
0.108797	176.922
0.107881	178.282
0.106813	179.641
0.105135	181
0.103609	182.36
0.10132	183.719
0.09857328	185.078
0.09552148	186.438
0.09216449	187.797
0.0889601	189.156
0.08651865	190.516
0.08484016	191.875
0.08361944	193.234
0.08300908	194.594
0.08285649	195.953
0.08285649	197.312
0.08316167	198.672
0.08316167	200.031
0.08331426	201.39
0.08331426	202.75
0.08331426	204.109
0.08346685	205.468
0.08346685	206.828
0.08346685	208.187
0.08346685	209.546
0.08346685	210.906
0.08331426	212.265
0.08331426	213.625
0.08331426	214.984
0.08346685	216.343
0.08346685	217.703
0.08331426	219.062
0.08316167	220.421
0.08331426	221.781
0.08331426	223.14
0.08331426	224.499
0.08346685	225.859
0.08316167	227.218
0.08331426	228.577
0.08316167	229.937
0.08331426	231.296
0.08316167	232.655
0.08316167	234.015
0.08316167	235.374
0.08300908	236.733
0.08316167	238.093
0.08316167	239.452
0.08300908	240.811
0.08300908	242.171
0.08300908	243.53
0.08300908	244.889
0.08300908	246.249
0.0827039	247.608
0.08285649	248.967
0.08285649	250.327
0.08285649	251.686
0.08285649	253.046
0.08285649	254.405
0.08300908	255.764
0.08285649	257.124
0.08285649	258.483
0.0827039	259.842
0.0827039	261.202
0.0827039	262.561
0.0827039	263.92
0.0827039	265.28
0.0827039	266.639
0.08255131	267.998
0.08255131	269.358
0.08255131	270.717
0.0827039	272.076
0.08255131	273.436
0.08255131	274.795
0.08255131	276.154
0.08255131	277.514
0.08255131	278.873
0.08239872	280.232
0.08255131	281.592
0.08224613	282.951
0.08239872	284.31
0.08239872	285.67
0.08224613	287.029
0.08224613	288.388
0.08209354	289.748
0.08209354	291.107
0.08209354	292.467
0.08194095	293.826
0.08209354	295.185
0.08194095	296.545
0.08194095	297.904
0.08194095	299.263
0.08178836	300.623
0.08194095	301.982
0.08148318	303.341
0.08163577	304.701
0.08148318	306.06
0.081178	307.419
0.081178	308.779
0.08087282	310.138
0.08041505	311.497
0.08026246	312.857
0.08026246	314.216
0.07980468	315.575
0.07965209	316.935
0.07919432	318.294
0.07873655	319.653
0.07843137	321.013
0.0779736	322.372
0.07690547	323.731
0.0764477	325.091
0.07553216	326.45
0.07446403	327.809
0.07324331	329.169
0.07202258	330.528
0.07064927	331.887
0.0686656	333.247
0.06698711	334.606
0.06500343	335.966
0.06256199	337.325
0.05996796	338.684
0.05706874	340.044
0.05386435	341.403
0.05050736	342.762
0.0468452	344.122
0.04272526	345.481
0.03830014	346.84
0.03356985	348.2
0.02899214	349.559
0.02426184	350.918
0.01922637	352.278
0.01464866	353.637
0.01022354	354.996
0.00564584	356.356
0.00167849	357.715
0	358.191

File: hc_nmc.txt
volts	mAhg
3.01122	1.8797E-05
3.14092	0.005090226
3.26802	0.01518797
3.39467	0.0342594
3.52041	0.0767256
3.60861	0.561
3.62158	1.26585
3.62829	1.97071
3.63317	2.67557
3.63714	3.38042
3.6405	4.08528
3.64355	4.79014
3.64645	5.49499
3.64889	6.19985
3.65118	6.9047
3.65347	7.60956
3.6556	8.31441
3.65759	9.01927
3.65942	9.72412
3.6614	10.429
3.66323	11.1338
3.66506	11.8387
3.66674	12.5435
3.66842	13.2484
3.6701	13.9533
3.67163	14.6581
3.6733	15.363
3.67468	16.0678
3.67636	16.7727
3.67773	17.4775
3.67926	18.1824
3.68078	18.8873
3.68215	19.5921
3.68368	20.297
3.6849	21.0018
3.68627	21.7067
3.6875	22.4115
3.68902	23.1164
3.69055	23.8212
3.69177	24.5261
3.69329	25.231
3.69436	25.9358
3.69558	26.6407
3.69696	27.3455
3.69833	28.0504
3.69955	28.7552
3.70092	29.4601
3.70214	30.1649
3.70336	30.8698
3.70474	31.5747
3.70596	32.2795
3.70718	32.9844
3.7084	33.6892
3.70962	34.3941
3.71069	35.0989
3.71206	35.8038
3.71313	36.5086
3.71435	37.2135
3.71572	37.9184
3.71664	38.6232
3.71771	39.3281
3.71893	40.0329
3.72	40.7378
3.72122	41.4426
3.72244	42.1475
3.72335	42.8523
3.72442	43.5572
3.72564	44.2621
3.72671	44.9669
3.72763	45.6718
3.728542	46.3766
3.72976	47.0815
3.73083	47.7863
3.7319	48.4912
3.73297	49.1961
3.73388	49.9009
3.73495	50.6058
3.73617	51.3106
3.73709	52.0155
3.73816	52.7203
3.73907	53.4252
3.74014	54.13
3.74105	54.8349
3.74212	55.5398
3.74319	56.2446
3.74411	56.9495
3.74517	57.6543
3.74609	58.3592
3.74731	59.064
3.74823	59.7689
3.74899	60.4737
3.7499	61.1786
3.75113	61.8835
3.75219	62.5883
3.75311	63.2932
3.75418	63.998
3.75509	64.7029
3.75586	65.4077
3.75723	66.1126
3.7583	66.8174
3.75921	67.5223
3.76028	68.2272
3.76135	68.932
3.76242	69.6369
3.76349	70.3417
3.7644	71.0466
3.76547	71.7514
3.76654	72.4563
3.76776	73.1612
3.76883	73.866
3.77005	74.5709
3.77096	75.2757
3.77203	75.9806
3.77325	76.6854
3.77447	77.3903
3.77554	78.0951
3.77691	78.8
3.77798	79.5049
3.7792	80.2097
3.78058	80.9146
3.78164	81.6194
3.78317	82.3243
3.78424	83.0291
3.78576	83.734
3.78714	84.4388
3.78851	85.1437
3.78973	85.8486
3.79126	86.5534
3.79278	87.2583
3.79431	87.9631
3.79583	88.668
3.79736	89.3728
3.79904	90.0777
3.80072	90.7825
3.80224	91.4874
3.80377	92.1923
3.80575	92.8971
3.80743	93.602
3.80926	94.3068
3.81109	95.0117
3.81308	95.7165
3.81476	96.4214
3.81704	97.1262
3.81918	97.8311
3.82116	98.536
3.8233	99.2408
3.82559	99.9457
3.82788	100.651
3.83001	101.355
3.8323	102.06
3.83505	102.765
3.83734	103.47
3.83978	104.175
3.84268	104.88
3.84512	105.585
3.84787	106.289
3.85046	106.994
3.85367	107.699
3.85626	108.404
3.85946	109.109
3.86236	109.814
3.86496	110.519
3.86816	111.223
3.87152	111.928
3.87472	112.633
3.87793	113.338
3.88128	114.043
3.88449	114.748
3.888	115.4525
3.89136	116.157
3.89487	116.862
3.89853	117.567
3.90204	118.272
3.9057	118.977
3.90921	119.682
3.91302	120.386
3.91669	121.091
3.92065	121.796
3.92432	122.501
3.92828	123.206
3.9321	123.911
3.93591	124.616
3.94003	125.32
3.944	126.025
3.94797	126.73
3.95193	127.435
3.95621	128.14
3.96017	128.845
3.96414	129.55
3.96841	130.254
3.97238	130.959
3.97635	131.664
3.98093	132.369
3.98489	133.074
3.98901	133.779
3.99329	134.484
3.99741	135.188
4.00168	135.893
4.00626	136.598
4.01038	137.303
4.01465	138.008
4.01892	138.713
4.02289	139.418
4.02731	140.122
4.03189	140.827
4.03616	141.532
4.04028	142.237
4.04471	142.942
4.04913	143.647
4.05371	144.352
4.05798	145.056
4.06226	145.761
4.06683	146.466
4.07126	147.171
4.07614	147.876
4.08026	148.581
4.08484	149.286
4.08957	149.99
4.0943	150.695
4.09857	151.4
4.10315	152.105
4.10788	152.81
4.11246	153.515
4.11704	154.22
4.12192	154.924
4.12665	155.629
4.131075	156.334
4.13581	157.039
4.14069	157.744
4.14527	158.449
4.15	159.154
4.15503	159.858
4.15961	160.563
4.16434	161.268
4.16922	161.973
4.17395	162.678
4.17899	163.383
4.18372	164.088
4.18845	164.792
4.19333	165.497
4.19821	166.202
4.20294	166.907
4.20768	167.612
4.21271	168.317
4.21729	169.022
4.22217	169.726
4.22705	170.431
4.23178	171.136
4.23682	171.841
4.2417	172.546
4.24643	173.251
4.25132	173.956
4.2562	174.66
4.26078	175.365
4.26596	176.07
4.27085	176.775
4.27573	177.48
4.28061	178.185
4.2855	178.89
4.29038	179.594
4.29526	180.299
4.29999	181.004
4.30503	181.709
4.31006	182.414
4.31464	183.119
4.31983	183.824
4.32486	184.528
4.3299	185.233
4.33478	185.938
4.33997	186.643
4.34516	187.348
4.35004	188.053
4.35554	188.758
4.36088	189.462
4.36591	190.167
4.3711	190.872
4.37659	191.577
4.38193	192.282
4.38727	192.987
4.39277	193.6915
4.39826	194.396
4.4036	195.101
4.4094	195.806
4.41489	196.511
4.42069	197.216
4.42634	197.921
4.43198	198.625
4.43778	199.33
4.44343	200.035
4.44938	200.74
4.45502	201.445
4.46082	202.15
4.46647	202.855
4.47227	203.559
4.47807	204.264
4.48386	204.969
4.48981	205.674
4.49546	206.379
4.50004	206.891